File: public/examples/polystyrene-irug.csv
Wavenumber,Intensity
200,0.529617
202.996,0.556851
205.992,0.536718
208.988,0.578261
211.984,0.591138
214.98,0.595133
217.976,0.620953
220.972,0.636907
223.968,0.648979
226.964,0.636886
229.96,0.644354
232.956,0.562147
235.952,0.505648
238.948,0.461878
241.944,0.362
244.94,0.328518
247.936,0.2574524
250.932,0.235342
253.928,0.213631
256.924,0.170596
259.92,0.179654
262.916,0.167732
265.912,0.14458
268.908,0.148442
271.904,0.152412
274.9,0.157768
277.896,0.147721
280.892,0.131921
283.888,0.144777
286.884,0.123517
289.88,0.125194
292.876,0.118726
295.872,0.109168
298.868,0.11007
301.864,0.106744
304.86,0.09862471
307.856,0.10347
310.852,0.08818492
313.848,0.09251659
316.844,0.10237
319.84,0.09838077
322.836,0.09171052
325.832,0.105158
328.828,0.100415
331.824,0.110562
334.82,0.10208
337.816,0.104913
340.812,0.110596
343.808,0.09600267
346.804,0.101778
349.8,0.09469278
352.796,0.09989342
355.792,0.095801
358.788,0.09306182
361.784,0.0882991
364.78,0.09801202
367.776,0.09211175
370.772,0.08112456
373.768,0.108393
376.764,0.09428005
379.76,0.1146281
382.756,0.112978
385.752,0.111171
388.748,0.12554
391.744,0.138413
394.74,0.142561
397.736,0.139446
400.732,0.168949
403.728,0.157413
406.724,0.188172
409.72,0.164982
412.716,0.171476
415.712,0.1771223
418.708,0.1463637
421.704,0.131561
424.7,0.132585
427.696,0.0933974
430.692,0.1261959
433.688,0.100582
436.684,0.10535
439.68,0.101185
442.676,0.09858692
445.672,0.101855
448.668,0.09614736
451.664,0.0948297
454.66,0.08778374
457.656,0.08041171
460.652,0.07218328
463.648,0.07121011
466.644,0.07928856
469.64,0.06594505
472.636,0.06601032
475.632,0.05612938
478.628,0.06962067
481.625,0.07324674
484.621,0.0534489
487.617,0.07148565
490.613,0.0819291
493.609,0.05934833
496.605,0.06055537
499.601,0.06583822
502.597,0.07469782
505.593,0.07430537
508.589,0.06012913
511.585,0.07630577
514.581,0.06732302
517.577,0.06542739
520.573,0.06700046
523.569,0.07738107
526.565,0.07546404
529.561,0.08060247
532.557,0.09280742
535.553,0.09647787
538.549,0.101842
541.545,0.105404
544.541,0.110794
547.537,0.1102
550.533,0.109106
553.529,0.101922
556.525,0.100481
559.521,0.08657269
562.517,0.08953495
565.513,0.1003177
568.509,0.09082012
571.505,0.09054146
574.501,0.09191577
577.497,0.08648168
580.493,0.0845202
583.489,0.08458361
586.485,0.07324184
589.481,0.07354757
592.477,0.08317363
595.473,0.06557091
598.469,0.07284304
601.465,0.0746819
604.461,0.06224243
607.457,0.07643399
610.453,0.08102045
613.449,0.09505813
616.445,0.136189
619.441,0.245059
622.437,0.637162
625.433,0.529261
628.429,0.2015142
631.425,0.118867
634.421,0.08128889
637.417,0.09601033
640.413,0.07953946
643.409,0.06235706
646.405,0.0487368
649.401,0.05451563
652.397,0.0519732
655.393,0.05501983
658.389,0.04952832
661.385,0.05259619
664.381,0.05047553
667.377,0.04764939
670.373,0.06279632
673.369,0.04482701
676.365,0.03650793
679.361,0.0555774
682.357,0.04290776
685.353,0.04315278
688.349,0.06080545
691.345,0.04182143
694.341,0.04601119
697.337,0.0513277
700.333,0.05303338
703.329,0.06070971
706.325,0.0620266
709.321,0.06666037
712.317,0.05002256
715.313,0.0496963
718.309,0.04628108
721.305,0.0481519
724.301,0.0592597
727.297,0.05134808
730.293,0.05825087
733.289,0.07126819
736.285,0.08336928
739.281,0.124412
742.277,0.134503
745.273,0.146304
748.269,0.160935
751.265,0.16433
754.261,0.174813
757.257,0.193982
760.253,0.217048
763.249,0.219716
766.245,0.208286
769.241,0.194358
772.237,0.185279
775.233,0.158663
778.229,0.158585
781.225,0.181652
784.221,0.183285
787.217,0.238525
790.213,0.304763
793.209,0.3439336
796.205,0.415274
799.201,0.383118
802.197,0.360132
805.193,0.279601
808.189,0.217883
811.185,0.193089
814.181,0.153589
817.177,0.139359
820.173,0.111555
823.169,0.08749159
826.165,0.08221178
829.161,0.06748784
832.157,0.08379642
835.153,0.109345
838.149,0.107967
841.145,0.127758
844.141,0.145459
847.137,0.126816
850.133,0.109981
853.129,0.115893
856.125,0.09125736
859.121,0.09264635
862.117,0.09622564
865.113,0.09361573
868.109,0.08383059
871.105,0.09530326
874.101,0.09887206
877.097,0.08134565
880.093,0.08655009
883.089,0.09147916
886.085,0.09333184
889.081,0.07932905
892.077,0.08949726
895.073,0.07504982
898.069,0.09189987
901.065,0.1160534
904.061,0.108146
907.057,0.13173
910.053,0.129708
913.049,0.117142
916.045,0.105691
919.041,0.08016967
922.037,0.07493101
925.033,0.06067268
928.029,0.08078436
931.025,0.0744027
934.021,0.08157872
937.017,0.09169093
940.013,0.08615056
943.009,0.09906067
946.005,0.08920777
949.001,0.08706137
951.997,0.102564
954.993,0.09464209
957.989,0.09294898
960.985,0.0985143
963.981,0.118987
966.977,0.128581
969.973,0.135014
972.969,0.132122
975.965,0.129239
978.961,0.143286
981.957,0.188662
984.953,0.213592
987.949,0.270085
990.945,0.413782
993.941,0.476209
996.937,0.660097
999.933,1.62016
1002.93,4.20951
1005.93,3.47442
1008.92,1.22726
1011.92,0.461237
1014.91,0.254722
1017.91,0.186052
1020.91,0.195654
1023.9,0.250957
1026.9,0.399551
1029.89,0.763346
1032.89,1.09133
1035.89,1.01297
1038.88,0.598237
1041.88,0.3770556
1044.87,0.297832
1047.87,0.211157
1050.87,0.186937
1053.86,0.184096
1056.86,0.168286
1059.85,0.169387
1062.85,0.179143
1065.85,0.172246
1068.84,0.208221
1071.84,0.2030334
1074.83,0.194947
1077.83,0.196462
1080.83,0.183976
1083.82,0.186292
1086.82,0.173816
1089.81,0.174931
1092.81,0.170163
1095.81,0.170841
1098.8,0.179278
1101.8,0.162625
1104.79,0.154617
1107.79,0.13811
1110.79,0.103046
1113.78,0.108932
1116.78,0.09134745
1119.77,0.09286502
1122.77,0.0822762
1125.77,0.07171791
1128.76,0.06613147
1131.76,0.06993087
1134.75,0.06185273
1137.75,0.08160363
1140.75,0.09287968
1143.74,0.1140326
1146.74,0.141842
1149.73,0.191804
1152.73,0.30983
1155.73,0.482592
1158.72,0.4521103
1161.72,0.330628
1164.71,0.2353503
1167.71,0.212253
1170.71,0.2206967
1173.7,0.234154
1176.7,0.292128
1179.69,0.458977
1182.69,0.608848
1185.69,0.5987843
1188.68,0.516092
1191.68,0.475621
1194.67,0.523581
1197.67,0.566562
1200.67,0.597046
1203.66,0.569777
1206.66,0.50791
1209.65,0.422866
1212.65,0.338232
1215.65,0.2556175
1218.64,0.221984
1221.64,0.197015
1224.63,0.197258
1227.63,0.16853
1230.63,0.148891
1233.62,0.137777
1236.62,0.115502
1239.61,0.101867
1242.61,0.113772
1245.61,0.120262
1248.6,0.115395
1251.6,0.11017
1254.59,0.0986005
1257.59,0.09869191
1260.59,0.08361927
1263.58,0.08605844
1266.58,0.09928787
1269.57,0.08792901
1272.57,0.08742797
1275.57,0.09541493
1278.56,0.09006263
1281.56,0.105748
1284.55,0.09763427
1287.55,0.109457
1290.55,0.112199
1293.54,0.119618
1296.54,0.12643
1299.53,0.13576
1302.53,0.149387
1305.53,0.140398
1308.52,0.15514
1311.52,0.1446797
1314.51,0.154207
1317.51,0.172743
1320.51,0.196656
1323.5,0.204677
1326.5,0.195536
1329.49,0.210654
1332.49,0.222085
1335.49,0.184834
1338.48,0.1930431
1341.48,0.169683
1344.47,0.1402826
1347.47,0.128201
1350.47,0.138289
1353.46,0.117289
1356.46,0.109566
1359.45,0.108531
1362.45,0.114859
1365.45,0.109092
1368.44,0.120684
1371.44,0.115485
1374.43,0.113245
1377.43,0.09746802
1380.43,0.09803919
1383.42,0.08859311
1386.42,0.06580755
1389.41,0.05984896
1392.41,0.05605213
1395.41,0.04955273
1398.4,0.05622529
1401.4,0.05244143
1404.39,0.0547105
1407.39,0.04101257
1410.39,0.05502674
1413.38,0.04844837
1416.38,0.04863041
1419.37,0.04463202
1422.37,0.04273994
1425.37,0.04642532
1428.36,0.0468197
1431.36,0.06895263
1434.35,0.09364754
1437.35,0.113232
1440.35,0.155706
1443.34,0.1861695
1446.34,0.226359
1449.33,0.250392
1452.33,0.274937
1455.33,0.248714
1458.32,0.175256
1461.32,0.105429
1464.31,0.07714163
1467.31,0.06796496
1470.31,0.05036955
1473.3,0.06012168
1476.3,0.0543902
1479.29,0.05116644
1482.29,0.0415612
1485.29,0.03765866
1488.28,0.04132435
1491.28,0.05129098
1494.27,0.06299337
1497.27,0.04801274
1500.27,0.05017191
1503.26,0.05569285
1506.26,0.0405846
1509.25,0.03824271
1512.25,0.0430785
1515.25,0.03677668
1518.24,0.04229542
1521.24,0.05242645
1524.23,0.040086
1527.23,0.04520706
1530.23,0.04525397
1533.22,0.03298866
1536.22,0.04962432
1539.21,0.06488607
1542.21,0.04817429
1545.21,0.0463888
1548.2,0.04776797
1551.2,0.04968016
1554.19,0.06159291
1557.19,0.05585939
1560.19,0.06284797
1563.18,0.07512006
1566.18,0.0609366
1569.17,0.07401655
1572.17,0.08786948
1575.17,0.1074
1578.16,0.161747
1581.16,0.301754
1584.15,0.516422
1587.15,0.363755
1590.15,0.226188
1593.14,0.233754
1596.14,0.309083
1599.13,0.545789
1602.13,0.939296
1605.13,0.911307
1608.12,0.562898
1611.12,0.303972
1614.11,0.171635
1617.11,0.115261
1620.11,0.09576707
1623.1,0.07105351
1626.1,0.07181522
1629.09,0.05872754
1632.09,0.06576581
1635.09,0.05063829
1638.08,0.05922404
1641.08,0.03813205
1644.07,0.04221404
1647.07,0.04498309
1650.07,0.0289473
1653.06,0.03475719
1656.06,0.03921928
1659.05,0.03753977
1662.05,0.0281583
1665.05,0.04438118
1668.04,0.03801168
1671.04,0.034925
1674.03,0.02930228
1677.03,0.02553044
1680.03,0.04109234
1683.02,0.0369147
1686.02,0.03117766
1689.01,0.04503049
1692.01,0.03679217
1695.01,0.04450171
1698,0.03569532
1701,0.03113024
1703.99,0.02602434
1706.99,0.02323603
1709.99,0.02865948
1712.98,0.03477538
1715.98,0.03172056
1718.97,0.02584402
1721.97,0.03507328
1724.97,0.02196253
1727.96,0.03903921
1730.96,0.03279856
1733.95,0.02633232
1736.95,0.02419824
1739.95,0.02885964
1742.94,0.01691871
1745.94,0.02526023
1748.93,0.02374344
1751.93,0.03233115
1754.93,0.01641848
1757.92,0.02217074
1760.92,0.02710187
1763.91,0.02241453
1766.91,0.0230976
1769.91,0.02979872
1772.9,0.04496203
1775.9,0.01810173
1778.89,0.03555664
1781.89,0.02534442
1784.89,0.03621539
1787.88,0.01683486
1790.88,0.02872384
1793.87,0.02468398
1796.87,0.02954239
1799.87,0.03186053
1802.86,0.02528408
1805.86,0.02287431
1808.85,0.02950629
1811.85,0.02286391
1814.85,0.03568749
1817.84,0.0293028
1820.84,0.03410949
1823.83,0.01717791
1826.83,0.02525676
1829.83,0.02479836
1832.82,0.02195655
1835.82,0.03209628
1838.81,0.02078866
1841.81,0.03227026
1844.81,0.0249166
1847.8,0.01886141
1850.8,0.01758825
1853.79,0.0152946
1856.79,0.02967595
1859.79,0.02447563
1862.78,0.02083959
1865.78,0.01918533
1868.77,0.02608463
1871.77,0.01489756
1874.77,0.01921326
1877.76,0.02362574
1880.76,0.01235307
1883.75,0.02842351
1886.75,0.02951186
1889.75,0.0252815
1892.74,0.03416441
1895.74,0.02383472
1898.74,0.03071004
1901.73,0.01647166
1904.73,0.02981802
1907.72,0.02621344
1910.72,0.02124351
1913.72,0.02391319
1916.71,0.02329771
1919.71,0.02186562
1922.7,0.01916484
1925.7,0.02585714
1928.7,0.01968955
1931.69,0.01942772
1934.69,0.02891251
1937.68,0.03319106
1940.68,0.03464275
1943.68,0.03402432
1946.67,0.02397483
1949.67,0.02017427
1952.66,0.02879529
1955.66,0.02587853
1958.66,0.03982937
1961.65,0.02976128
1964.65,0.03429787
1967.64,0.03091577
1970.64,0.02333004
1973.64,0.02720511
1976.63,0.02615914
1979.63,0.03781167
1982.62,0.02326201
1985.62,0.02192998
1988.62,0.02836497
1991.61,0.02213909
1994.61,0.01819507
1997.6,0.02005644
2000.6,0.01713925
2003.6,0.0145835
2006.59,0.02566948
2009.59,0.01762137
2012.58,0.03058751
2015.58,0.02008829
2018.58,0.03002505
2021.57,0.02793391
2024.57,0.01833457
2027.56,0.04118062
2030.56,0.03970045
2033.56,0.020122
2036.55,0.02046804
2039.55,0.02683933
2042.54,0.02386074
2045.54,0.01366087
2048.54,0.02356869
2051.53,0.02544187
2054.53,0.02736084
2057.52,0.02740113
2060.52,0.02426766
2063.52,0.0285872
2066.51,0.02931312
2069.51,0.01468846
2072.5,0.02002073
2075.5,0.02018943
2078.5,0.02243388
2081.49,0.01620176
2084.49,0.02650469
2087.48,0.01247088
2090.48,0.02553416
2093.48,0.01181955
2096.47,0.01270809
2099.47,0.02629154
2102.46,0.01875381
2105.46,0.01624715
2108.46,0.02620819
2111.45,0.00857619
2114.45,0.02095343
2117.44,0.02317371
2120.44,0.01065596
2123.44,0.02771073
2126.43,0.01871607
2129.43,0.00778293
2132.42,0.02917221
2135.42,0.02833597
2138.42,0.03690414
2141.41,0.02455421
2144.41,0.00887305
2147.4,0.03437045
2150.4,0.01835051
2153.4,0.01853581
2156.39,0.00901298
2159.39,0.02506005
2162.38,0.02153561
2165.38,0.01850462
2168.38,0.02303432
2171.37,0.04192033
2174.37,0.01737519
2177.36,0.03726565
2180.36,0.01336814
2183.36,0.02220591
2186.35,0.00241879
2189.35,0.04576528
2192.34,0.01649925
2195.34,0.01981055
2198.34,0.03617678
2201.33,0.02207752
2204.33,0.03619197
2207.32,0.02048348
2210.32,0.007111
2213.32,0.03386155
2216.31,0.00346492
2219.31,0.01596887
2222.3,0.00337351
2225.3,0.02820297
2228.3,0.02572707
2231.29,0.0202701
2234.29,0.0349388
2237.28,0.03109214
2240.28,-7.2e-7
2243.28,0.01822087
2246.27,0.00630669
2249.27,0.02127237
2252.26,0.02660278
2255.26,0.02607707
2258.26,0.02116725
2261.25,0.02373535
2264.25,0.01395122
2267.24,0.01556233
2270.24,0.0172474
2273.24,0.01665412
2276.23,0.02032128
2279.23,0.04084161
2282.22,0.04897297
2285.22,0.01645211
2288.22,0.02179416
2291.21,0.03765979
2294.21,0.0338281
2297.2,0.03133247
2300.2,0.02793032
2303.2,0.01955805
2306.19,0.02403763
2309.19,0.02141877
2312.18,0.02511307
2315.18,0.03096829
2318.18,0.01885546
2321.17,0.00710276
2324.17,0.02661196
2327.16,0.01935179
2330.16,0.02070409
2333.16,0.03514578
2336.15,0.04134851
2339.15,0.01326281
2342.14,0.02964519
2345.14,0.01626109
2348.14,0.01925159
2351.13,0.03521755
2354.13,0.02527059
2357.12,0.02742645
2360.12,0.02934718
2363.12,0.03947693
2366.11,0.0139362
2369.11,0.03459761
2372.1,0.0302269
2375.1,0.01118537
2378.1,0.02744869
2381.09,0.03155201
2384.09,0.03259369
2387.08,0.02203025
2390.08,0.01438278
2393.08,0.01417952
2396.07,0.03342207
2399.07,0.01920131
2402.06,0.0213197
2405.06,0.01332781
2408.06,0.02662264
2411.05,0.01963681
2414.05,0.02331809
2417.04,0.01649297
2420.04,0.03050414
2423.04,0.01334992
2426.03,0.02401952
2429.03,0.02399281
2432.02,0.02526277
2435.02,0.03064711
2438.02,0.03624706
2441.01,0.01046317
2444.01,0.01936113
2447,0.04333162
2450,0.0237024
2453,0.03763309
2455.99,0.02038434
2458.99,0.03411745
2461.98,0.0287737
2464.98,0.03069551
2467.98,0.02029452
2470.97,0.0251217
2473.97,-0.00794597
2476.96,0.04315662
2479.96,0.02309278
2482.96,0.03354066
2485.95,0.03934373
2488.95,0.0265575
2491.94,0.03553784
2494.94,0.02204524
2497.94,0.02822568
2500.93,0.02055892
2503.93,0.05325232
2506.92,0.00810541
2509.92,0.04015765
2512.92,0.02629485
2515.91,0.03257697
2518.91,0.02511574
2521.9,0.02208446
2524.9,0.02801755
2527.9,0.02259307
2530.89,0.02188548
2533.89,0.03422806
2536.88,0.03693804
2539.88,0.05998782
2542.88,0.03656801
2545.87,0.03414162
2548.87,0.03105146
2551.86,0.07150067
2554.86,0.04786981
2557.86,0.06174322
2560.85,0.05919828
2563.85,0.04722496
2566.84,0.01092586
2569.84,0.05586687
2572.84,0.06079868
2575.83,0.04228867
2578.83,0.02537822
2581.82,0.0323084
2584.82,0.04935534
2587.82,0.06503296
2590.81,0.03971598
2593.81,0.0475774
2596.8,0.03805309
2599.8,0.0358206
2602.8,0.05320765
2605.79,0.07685687
2608.79,0.04835503
2611.78,0.02648449
2614.78,0.06126017
2617.78,0.04103319
2620.77,0.06007581
2623.77,0.03361383
2626.76,0.05040631
2629.76,0.02405889
2632.76,0.05354411
2635.75,0.02449437
2638.75,0.05590273
2641.74,0.0235891
2644.74,0.02436609
2647.74,0.03765531
2650.73,0.06987232
2653.73,0.04385897
2656.72,0.02898576
2659.72,0.00697463
2662.72,0.02987647
2665.71,0.04989373
2668.71,0.05397413
2671.7,0.04301074
2674.7,0.02268045
2677.7,0.05718748
2680.69,0.02597555
2683.69,0.05040293
2686.68,0.00010517
2689.68,0.04207594
2692.68,0.06269993
2695.67,0.06388619
2698.67,-0.00028421
2701.66,0.0625047
2704.66,0.05325476
2707.66,0.03179576
2710.65,0.07853197
2713.65,0.04202988
2716.64,0.05847412
2719.64,0.05508122
2722.64,0.04483039
2725.63,0.04476564
2728.63,0.08367993
2731.62,0.02522297
2734.62,0.04913142
2737.62,0.03790127
2740.61,0.00461206
2743.61,0.02792002
2746.6,0.06866162
2749.6,0.02512277
2752.6,0.03679887
2755.59,0.00508472
2758.59,0.01609673
2761.58,0.03694566
2764.58,0.034684
2767.58,0.02701809
2770.57,0.01943031
2773.57,0.03976283
2776.56,0.03316331
2779.56,0.02945681
2782.56,0.05662795
2785.55,0.04570525
2788.55,0.0225532
2791.54,0.09273048
2794.54,0.05500871
2797.54,0.05917471
2800.53,0.05273676
2803.53,0.06759721
2806.52,0.0629447
2809.52,0.02390045
2812.52,0.04927389
2815.51,0.05302996
2818.51,0.01058886
2821.5,0.04256182
2824.5,0.06061959
2827.5,0.07009579
2830.49,0.08531039
2833.49,0.07726596
2836.48,0.123844
2839.48,0.162087
2842.48,0.210616
2845.47,0.275255
2848.47,0.3484232
2851.46,0.36888
2854.46,0.384898
2857.46,0.3952167
2860.45,0.367339
2863.45,0.327368
2866.44,0.309068
2869.44,0.29479
2872.44,0.295521
2875.43,0.314858
2878.43,0.321614
2881.42,0.401431
2884.42,0.441377
2887.42,0.475511
2890.41,0.58804
2893.41,0.681588
2896.4,0.637396
2899.4,0.716395
2902.4,0.794136
2905.39,0.795355
2908.39,0.801832
2911.38,0.72365
2914.38,0.739247
2917.38,0.68493
2920.37,0.565172
2923.37,0.550943
2926.36,0.59529
2929.36,0.450922
2932.36,0.497126
2935.35,0.344056
2938.35,0.361822
2941.34,0.299963
2944.34,0.214635
2947.34,0.249128
2950.33,0.228094
2953.33,0.2142579
2956.32,0.160166
2959.32,0.225506
2962.32,0.129549
2965.31,0.158192
2968.31,0.160367
2971.3,0.160583
2974.3,0.285459
2977.3,0.294822
2980.29,0.302055
2983.29,0.164022
2986.28,0.158907
2989.28,0.119587
2992.28,0.272219
2995.27,0.0915968
2998.27,0.351307
3001.26,0.241497
3004.26,0.25689
3007.26,0.213941
3010.25,0.215473
3013.25,0.171191
3016.25,0.153301
3019.24,0.277081
3022.24,0.346553
3025.23,0.2725273
3028.23,0.5504271
3031.23,0.593165
3034.22,0.797544
3037.22,0.902239
3040.21,0.942207
3043.21,0.981169
3046.21,1.24584
3049.2,1.79534
3052.2,2.25328
3055.19,2.18875
3058.19,1.96245
3061.19,2.01142
3064.18,1.6684
3067.18,1.2317
3070.17,1.00783
3073.17,0.816597
3076.17,0.455441
3079.16,0.399142
3082.16,0.439563
3085.15,0.343382
3088.15,0.284829
3091.15,0.254075
3094.14,0.240098
3097.14,0.108623
3100.13,0.180903
3103.13,0.249594
3106.13,0.03895987
3109.12,0.02658541
3112.12,0.211445
3115.11,0.02215863
3118.11,0.2205167
3121.11,0.01359483
3124.1,-0.00756834
3127.1,-0.02366127
3130.09,-0.03226075
3133.09,0.225504
3136.09,0.260676
3139.08,0.06905437
3142.08,0.04181785
3145.07,0.00093019
3148.07,0.120783
3151.07,0.02081348
3154.06,0.07772324
3157.06,0.06362387
3160.05,0.123701
3163.05,0.0975374
3166.05,0.246014
3169.04,0.124186
3172.04,0.01153192
3175.03,-0.207428
3178.03,0.00032219
3181.03,-0.129495
3184.02,-0.141371
3187.02,0.03990971
3190.01,0.02607572
3193.01,0.04256111
3196.01,0.04516805
3199,0.141744
3200,0.177545